Folder: xrd_umap/xrd_umap_package_ja/data

Note: README.md
xrd-umap: XRDデータ前処理・解析ツール

1. 概要

このツールは、既存のXRDデータセット生成スクリプトをモジュール化したものです。元のスクリプトの振る舞いを維持しつつ、以下の機能を追加しています。

Readerプラグイン方式: 異なるファイル形式（ASCII, XRDML, ベンダー形式）を透過的に読み込みます。

ゼロ点補正 (オプション): 既知の hkl ピーク情報に基づき、回折パターンのゼロ点シフトを計算・補正します。

互換性

データセット生成:
生成される calcd_patterns.csv（数値のみの行列）および targets.csv（file→行番号の対応）の仕様は、元の xrd_to_dataset.py スクリプトと完全に同一です。

ゼロ点補正:
計算ロジックおよび peaks.txt の入出力フォーマットは、元の urlap_report_v3.py スクリプトの仕様をそのまま利用しています。

2. インストール

# 基本インストール
pip install -e .

# ベンダー固有形式 (.ras, .raw 等) のサポートが必要な場合:
pip install '.[vendor]'    # xylib-py を追加インストールします


3. 使用方法

3-1. データセット生成

指定されたディレクトリ内のXRDファイルを読み込み、共通の2θグリッドにリサンプリングし、L2正規化を行ったデータセットをCSVとして出力します。

xrd-umap dataset ./my_data_directory --xmin 10 --xmax 80 --step 0.02


出力ファイル:

calcd_patterns.csv: 数値のみの行列（ヘッダなし、インデックスなし）

targets.csv: file,label の形式（label は calcd_patterns.csv の行番号に対応）

（注） xylib-py がインストールされていない場合、ベンダー形式のファイルはスキップされます。ASCIIおよびXRDML形式は標準で読み込み可能です。

データフロー（データセット生成）:

flowchart TD
    A[入力ディレクトリ] --> B{Readerで読み込み}
    B -->|ASCII 2列 (.txt/.csv/.xy)| C[2θ, 強度]
    B -->|XRDML (.xrdml)| C
    B -->|xylib ベンダー (.ras/.raw)| C
    C --> D[共通グリッドを生成 (xmin, xmax, step)]
    D --> E[線形補間で再サンプリング]
    E --> F[L2 正規化]
    F --> G[calcd_patterns.csv (数値のみ)]
    F --> H[targets.csv (file→label)]


3-2. ゼロ点補正（オプション）

この機能は、既知の hkl 面指数を持つ回折ピーク（peaks.txt）が利用可能な場合に使用します。

peaks.txt のフォーマット:

urlap_report_v3.py と同一のフォーマットを使用します。

1行目: タイトル

2行目: 結晶系コード (1〜8)

3行目: 波長 [Å] と 初期Δ（度）（任意指定）

4行目以降: h k l 2theta_obs_raw（h>=1000 で読み込み終了）

A) 固定Δによる補正

指定した delta 値を用いて補正計算を行います。

xrd-umap zeroshift fixed -i peaks.txt --wavelength 1.5406 --delta 0.03 --out report.txt


B) Δを走査して最適化

指定した範囲（--delta-range）で delta 値を走査し、最適な値を探索します。

xrd-umap zeroshift scan -i peaks.txt --wavelength 1.5406 \
    --delta-range -0.5 0.5 --step 0.05 \
    --select-by uncprod --out report.txt


--select-by: 最適化の指標（rms または uncprod）を選択します。

C) 2列カーブ（CSV）にΔを適用

計算された delta 値を、実際の2列データ（2θ, 強度）に適用して補正します。

# 入出力は 2列CSV (2theta, intensity)
xrd-umap zeroshift apply-curve --in-csv raw.csv --out-csv shifted.csv --delta 0.03


データフロー（ゼロ点補正）:

flowchart TD
    A[peaks.txt (タイトル/系コード/波長/Δ/hkl+2θobs_raw)] --> B{モード}
    B -->|fixed| C[Δ を固定値で指定]
    B -->|scan| D[Δ∈[min,max] を走査]
    C --> E[Q空間での線形回帰 → 格子定数/不確かさ]
    D --> E
    E --> F[最適 Δ の決定 & レポート生成]
    F --> G[report.txt]
    F --> H[apply-curve で 2θ を補正 (任意)]


4. 対応フォーマット（Reader プラグイン）

ASCII 2列: .txt, .csv, .xy, .xye, .dat

PANalytical XRDML: .xrdml

ベンダー形式 (要 xylib-py): .ras, .uxd, .raw, .rd, .cpi, .udf, .xdd など

カスタムReaderの追加

Readerはプラグインとして簡単に追加登録できます。

from xrd_umap.io.readers import Reader, register_reader
import numpy as np

def read_my_format(path: str) -> tuple[np.ndarray, np.ndarray]:
    """ (2theta_array, intensity_array) を返すカスタムローダー """
    # ... 読み込みロジック ...
    x = np.array([...])
    y = np.array([...])
    return x, y

# 拡張子と優先度を指定して登録
register_reader(Reader(
    name="myfmt", 
    loader=read_my_format, 
    extensions=(".myfmt", ".custom"), 
    priority=25
))



File: example_pattern.csv
2theta,intensity
10.0,0.0
10.4,0.0
10.8,0.0
11.2,0.0
11.6,0.0
12.0,0.0
12.4,0.0
12.8,0.0
13.2,0.0
13.6,0.0
14.0,0.0
14.4,0.0
14.8,0.0
15.2,0.0
15.6,0.0
16.0,0.0
16.4,0.0
16.8,0.0
17.2,0.0
17.6,0.0
18.0,0.0
18.4,0.0
18.8,0.0
19.2,0.0
19.6,0.0
20.0,0.0
20.4,0.0
20.8,0.0
21.2,0.0
21.6,0.0
22.0,0.0
22.4,0.0
22.8,0.0
23.2,0.0
23.6,0.0
24.0,0.0
24.4,0.0
24.8,0.0
25.2,0.0
25.6,0.0
26.0,0.0
26.4,0.0
26.8,0.0
27.2,0.0
27.6,5.31407e-298
28.0,9.87711e-267
28.4,3.36244e-237
28.8,2.09653e-209
29.2,2.39425e-183
29.6,5.00797e-159
30.0,1.91856e-136
30.4,1.3462e-115
30.8,1.73008e-96
31.2,4.07236e-79
31.6,1.75569e-63
32.0,1.38634e-49
32.4,2.00501e-37
32.8,5.31109e-27
33.2,2.57676e-18
33.6,2.28973e-11
34.0,3.72665e-06
34.4,0.011109
34.8,0.606531
35.2,0.606531
35.6,0.011109
36.0,3.72665e-06
36.4,2.28973e-11
36.8,2.57676e-18
37.2,5.31109e-27
37.6,2.00501e-37
38.0,1.38634e-49
38.4,1.75569e-63
38.8,4.07236e-79
39.2,1.73008e-96
39.6,1.3462e-115
40.0,1.91856e-136
40.4,5.00797e-159
40.8,2.39425e-183
41.2,2.09653e-209
41.6,3.36244e-237
42.0,9.87711e-267
42.4,5.31407e-298
42.8,0.0
43.2,0.0
43.6,0.0
44.0,0.0
44.4,0.0
44.8,0.0
45.2,0.0
45.6,0.0
46.0,0.0
46.4,0.0
46.8,0.0
47.2,0.0
47.6,0.0
48.0,0.0
48.4,0.0
48.8,2.2131e-304
49.2,3.77725e-283
49.6,1.08961e-262
50.0,5.31236e-243
50.4,4.37749e-224
50.8,6.09654e-206
51.2,1.43504e-188
51.6,5.70904e-172
52.0,3.8387e-156
52.4,4.36241e-141
52.8,8.37894e-127
53.2,2.72003e-113
53.6,1.49237e-100
54.0,1.3839e-88
54.4,2.16895e-77
54.8,5.74537e-67
55.2,2.57221e-57
55.6,1.94633e-48
56.0,2.48912e-40
56.4,5.38019e-33
56.8,1.96548e-26
57.2,1.21356e-20
57.6,1.26642e-15
58.0,2.23363e-11
58.4,6.65836e-08
58.8,3.35463e-05
59.2,0.00285655
59.6,0.0411112
60.0,0.1
60.4,0.0411112
60.8,0.00285655
61.2,3.35463e-05
61.6,6.65836e-08
62.0,2.23363e-11
62.4,1.26642e-15
62.8,1.21356e-20
63.2,1.96548e-26
63.6,5.38019e-33
64.0,2.48912e-40
64.4,1.94633e-48
64.8,2.57221e-57
65.2,5.74537e-67
65.6,2.16895e-77
66.0,1.3839e-88
66.4,1.49237e-100
66.8,2.72003e-113
67.2,8.37894e-127
67.6,4.36241e-141
68.0,3.8387e-156
68.4,5.70904e-172
68.8,1.43504e-188
69.2,6.09654e-206
69.6,4.37749e-224
70.0,5.31236e-243
70.4,1.08961e-262
70.8,3.77725e-283
71.2,2.2131e-304
71.6,0.0
72.0,0.0
72.4,0.0
72.8,0.0
73.2,0.0
73.6,0.0
74.0,0.0
74.4,0.0
74.8,0.0
75.2,0.0
75.6,0.0
76.0,0.0
76.4,0.0
76.8,0.0
77.2,0.0
77.6,0.0
78.0,0.0
78.4,0.0
78.8,0.0
79.2,0.0
79.6,0.0
80.0,0.0